subNum,length,trial,set,stim,targetfoil,resp,corr,rt
T0_4577_sternberg,2,1,BH,J,F,<rshift>,1,2943
T0_4577_sternberg,2,2,BH,B,T,<lshift>,1,1541
T0_4577_sternberg,2,3,BH,V,F,<rshift>,1,1514
T0_4577_sternberg,2,4,BH,R,F,<lshift>,0,1532
T0_4577_sternberg,2,5,BH,H,T,<rshift>,0,4001
T0_4577_sternberg,2,6,BH,B,T,<lshift>,1,2839
T0_4577_sternberg,2,7,BH,B,T,<lshift>,1,1285
T0_4577_sternberg,2,8,BH,V,F,<rshift>,1,1481
T0_4577_sternberg,2,9,BH,H,T,<lshift>,1,1639
T0_4577_sternberg,2,10,BH,L,F,<rshift>,1,1251
T0_4577_sternberg,2,11,BH,B,T,<lshift>,1,942
T0_4577_sternberg,2,12,BH,L,F,<rshift>,1,4251
T0_4577_sternberg,2,13,BH,B,T,<lshift>,1,895
T0_4577_sternberg,2,14,BH,D,F,<rshift>,1,1225
T0_4577_sternberg,2,15,BH,H,T,<lshift>,1,1585
T0_4577_sternberg,2,16,BH,N,F,<rshift>,1,1706
T0_4577_sternberg,2,17,BH,B,T,<lshift>,1,923
T0_4577_sternberg,2,18,BH,B,T,<lshift>,1,1162
T0_4577_sternberg,2,19,BH,R,F,<rshift>,1,1126
T0_4577_sternberg,2,20,BH,B,T,<lshift>,1,1289
T0_4577_sternberg,2,21,BH,W,F,<rshift>,1,2194
T0_4577_sternberg,2,22,BH,B,T,<lshift>,1,1140
T0_4577_sternberg,2,23,BH,Q,F,<rshift>,1,1772
T0_4577_sternberg,2,24,BH,T,F,<rshift>,1,1868
T0_4577_sternberg,2,25,BH,W,F,<rshift>,1,1767
T0_4577_sternberg,2,26,BH,B,T,<lshift>,1,706
T0_4577_sternberg,2,27,BH,R,F,<rshift>,1,1243
T0_4577_sternberg,2,28,BH,T,F,<rshift>,1,1562
T0_4577_sternberg,2,29,BH,H,T,<lshift>,1,1277
T0_4577_sternberg,2,30,BH,H,T,<lshift>,1,768
T0_4577_sternberg,2,31,BH,B,T,<lshift>,1,814
T0_4577_sternberg,2,32,BH,G,F,<rshift>,1,1195
T0_4577_sternberg,2,33,BH,M,F,<rshift>,1,1754
T0_4577_sternberg,2,34,BH,H,T,<lshift>,1,840
T0_4577_sternberg,2,35,BH,B,T,<lshift>,1,1184
T0_4577_sternberg,2,36,BH,D,F,<rshift>,1,1362
T0_4577_sternberg,2,37,BH,Z,F,<rshift>,1,570
T0_4577_sternberg,2,38,BH,S,F,<rshift>,1,667
T0_4577_sternberg,2,39,BH,B,T,<lshift>,1,715
T0_4577_sternberg,2,40,BH,B,T,<lshift>,1,637
T0_4577_sternberg,2,41,BH,H,T,<lshift>,1,960
T0_4577_sternberg,2,42,BH,K,F,<rshift>,1,763
T0_4577_sternberg,2,43,BH,Z,F,<rshift>,1,1153
T0_4577_sternberg,2,44,BH,Z,F,<rshift>,1,993
T0_4577_sternberg,2,45,BH,H,T,<lshift>,1,805
T0_4577_sternberg,2,46,BH,C,F,<rshift>,1,1711
T0_4577_sternberg,2,47,BH,S,F,<rshift>,1,1939
T0_4577_sternberg,2,48,BH,B,T,<lshift>,1,885
T0_4577_sternberg,2,49,BH,B,T,<lshift>,1,553
T0_4577_sternberg,2,50,BH,H,T,<lshift>,1,571
T0_4577_sternberg,4,51,BQRH,H,T,<lshift>,1,2953
T0_4577_sternberg,4,52,BQRH,F,F,<rshift>,1,1709
T0_4577_sternberg,4,53,BQRH,C,F,<rshift>,1,2910
T0_4577_sternberg,4,54,BQRH,Q,T,<lshift>,1,752
T0_4577_sternberg,4,55,BQRH,V,F,<rshift>,1,1860
T0_4577_sternberg,4,56,BQRH,M,F,<rshift>,1,3654
T0_4577_sternberg,4,57,BQRH,M,F,<rshift>,1,1360
T0_4577_sternberg,4,58,BQRH,C,F,<rshift>,1,796
T0_4577_sternberg,4,59,BQRH,R,T,<lshift>,1,915
T0_4577_sternberg,4,60,BQRH,Q,T,<lshift>,1,1562
T0_4577_sternberg,4,61,BQRH,C,F,<rshift>,1,3230
T0_4577_sternberg,4,62,BQRH,G,F,<rshift>,1,3089
T0_4577_sternberg,4,63,BQRH,Q,T,<lshift>,1,1218
T0_4577_sternberg,4,64,BQRH,H,T,<lshift>,1,1237
T0_4577_sternberg,4,65,BQRH,H,T,<lshift>,1,804
T0_4577_sternberg,4,66,BQRH,S,F,<rshift>,1,2126
T0_4577_sternberg,4,67,BQRH,K,F,<lshift>,0,1697
T0_4577_sternberg,4,68,BQRH,Q,T,<lshift>,1,2123
T0_4577_sternberg,4,69,BQRH,Q,T,<lshift>,1,1045
T0_4577_sternberg,4,70,BQRH,B,T,<lshift>,1,680
T0_4577_sternberg,4,71,BQRH,Q,T,<lshift>,1,752
T0_4577_sternberg,4,72,BQRH,T,F,<rshift>,1,894
T0_4577_sternberg,4,73,BQRH,R,T,<lshift>,1,823
T0_4577_sternberg,4,74,BQRH,Q,T,<lshift>,1,1027
T0_4577_sternberg,4,75,BQRH,T,F,<rshift>,1,1186
T0_4577_sternberg,4,76,BQRH,Q,T,<lshift>,1,865
T0_4577_sternberg,4,77,BQRH,L,F,<rshift>,1,2004
T0_4577_sternberg,4,78,BQRH,S,F,<rshift>,1,2192
T0_4577_sternberg,4,79,BQRH,B,T,<lshift>,1,722
T0_4577_sternberg,4,80,BQRH,R,T,<lshift>,1,712
T0_4577_sternberg,4,81,BQRH,N,F,<rshift>,1,2156
T0_4577_sternberg,4,82,BQRH,B,T,<lshift>,1,727
T0_4577_sternberg,4,83,BQRH,W,F,<rshift>,1,936
T0_4577_sternberg,4,84,BQRH,C,F,<rshift>,1,1676
T0_4577_sternberg,4,85,BQRH,L,F,<rshift>,1,1212
T0_4577_sternberg,4,86,BQRH,V,F,<rshift>,1,1151
T0_4577_sternberg,4,87,BQRH,N,F,<rshift>,1,1828
T0_4577_sternberg,4,88,BQRH,G,F,<rshift>,1,1270
T0_4577_sternberg,4,89,BQRH,B,T,<lshift>,1,718
T0_4577_sternberg,4,90,BQRH,B,T,<lshift>,1,630
T0_4577_sternberg,4,91,BQRH,R,T,<lshift>,1,875
T0_4577_sternberg,4,92,BQRH,Q,T,<lshift>,1,1157
T0_4577_sternberg,4,93,BQRH,M,F,<rshift>,1,1737
T0_4577_sternberg,4,94,BQRH,B,T,<lshift>,1,777
T0_4577_sternberg,4,95,BQRH,H,T,<lshift>,1,710
T0_4577_sternberg,4,96,BQRH,S,F,<rshift>,1,1436
T0_4577_sternberg,4,97,BQRH,R,T,<lshift>,1,1200
T0_4577_sternberg,4,98,BQRH,M,F,<rshift>,1,1725
T0_4577_sternberg,4,99,BQRH,G,F,<rshift>,1,1177
T0_4577_sternberg,4,100,BQRH,R,T,<lshift>,1,744
T0_4577_sternberg,6,101,WBLFKJ,L,T,<lshift>,1,2189
T0_4577_sternberg,6,102,WBLFKJ,S,F,<rshift>,1,1737
T0_4577_sternberg,6,103,WBLFKJ,J,T,<rshift>,0,1414
T0_4577_sternberg,6,104,WBLFKJ,V,F,<rshift>,1,2153
T0_4577_sternberg,6,105,WBLFKJ,C,F,<rshift>,1,2085
T0_4577_sternberg,6,106,WBLFKJ,J,T,<lshift>,1,1149
T0_4577_sternberg,6,107,WBLFKJ,Z,F,<rshift>,1,1518
T0_4577_sternberg,6,108,WBLFKJ,T,F,<rshift>,1,2363
T0_4577_sternberg,6,109,WBLFKJ,W,T,<lshift>,1,1038
T0_4577_sternberg,6,110,WBLFKJ,N,F,<rshift>,1,1478
T0_4577_sternberg,6,111,WBLFKJ,J,T,<lshift>,1,1310
T0_4577_sternberg,6,112,WBLFKJ,P,F,<rshift>,1,1271
T0_4577_sternberg,6,113,WBLFKJ,F,T,<rshift>,0,4973
T0_4577_sternberg,6,114,WBLFKJ,F,T,<lshift>,1,1483
T0_4577_sternberg,6,115,WBLFKJ,D,F,<rshift>,1,2193
T0_4577_sternberg,6,116,WBLFKJ,Q,F,<rshift>,1,2448
T0_4577_sternberg,6,117,WBLFKJ,R,F,<rshift>,1,4563
T0_4577_sternberg,6,118,WBLFKJ,F,T,<lshift>,1,1021
T0_4577_sternberg,6,119,WBLFKJ,W,T,<lshift>,1,800
T0_4577_sternberg,6,120,WBLFKJ,S,F,<rshift>,1,1284
T0_4577_sternberg,6,121,WBLFKJ,M,F,<rshift>,1,4175
T0_4577_sternberg,6,122,WBLFKJ,K,T,<lshift>,1,2628
T0_4577_sternberg,6,123,WBLFKJ,P,F,<rshift>,1,1152
T0_4577_sternberg,6,124,WBLFKJ,P,F,<rshift>,1,740
T0_4577_sternberg,6,125,WBLFKJ,K,T,<lshift>,1,916
T0_4577_sternberg,6,126,WBLFKJ,W,T,<lshift>,1,983
T0_4577_sternberg,6,127,WBLFKJ,B,T,<lshift>,1,1802
T0_4577_sternberg,6,128,WBLFKJ,Z,F,<rshift>,1,1023
T0_4577_sternberg,6,129,WBLFKJ,V,F,<rshift>,1,4151
T0_4577_sternberg,6,130,WBLFKJ,F,T,<lshift>,1,2039
T0_4577_sternberg,6,131,WBLFKJ,C,F,<rshift>,1,2088
T0_4577_sternberg,6,132,WBLFKJ,K,T,<lshift>,1,1123
T0_4577_sternberg,6,133,WBLFKJ,L,T,<lshift>,1,1218
T0_4577_sternberg,6,134,WBLFKJ,P,F,<rshift>,1,1616
T0_4577_sternberg,6,135,WBLFKJ,L,T,<lshift>,1,980
T0_4577_sternberg,6,136,WBLFKJ,M,F,<rshift>,1,1154
T0_4577_sternberg,6,137,WBLFKJ,C,F,<lshift>,0,816
T0_4577_sternberg,6,138,WBLFKJ,M,F,<rshift>,1,1310
T0_4577_sternberg,6,139,WBLFKJ,F,T,<lshift>,1,1273
T0_4577_sternberg,6,140,WBLFKJ,H,F,<rshift>,1,5839
T0_4577_sternberg,6,141,WBLFKJ,K,T,<lshift>,1,2410
T0_4577_sternberg,6,142,WBLFKJ,K,T,<lshift>,1,833
T0_4577_sternberg,6,143,WBLFKJ,H,F,<rshift>,1,5629
T0_4577_sternberg,6,144,WBLFKJ,J,T,<lshift>,1,683
T0_4577_sternberg,6,145,WBLFKJ,F,T,<lshift>,1,834
T0_4577_sternberg,6,146,WBLFKJ,J,T,<lshift>,1,640
T0_4577_sternberg,6,147,WBLFKJ,T,F,<rshift>,1,1152
T0_4577_sternberg,6,148,WBLFKJ,J,T,<lshift>,1,693
T0_4577_sternberg,6,149,WBLFKJ,Q,F,<rshift>,1,6377
T0_4577_sternberg,6,150,WBLFKJ,W,T,<lshift>,1,2379
T0_4577_sternberg,2,151,BH,Q,F,<rshift>,1,2200
T0_4577_sternberg,2,152,BH,H,T,<lshift>,1,1104
T0_4577_sternberg,2,153,BH,H,T,<lshift>,1,660
T0_4577_sternberg,2,154,BH,B,T,<lshift>,1,784
T0_4577_sternberg,2,155,BH,B,T,<lshift>,1,675
T0_4577_sternberg,2,156,BH,F,F,<rshift>,1,2147
T0_4577_sternberg,2,157,BH,H,T,<lshift>,1,724
T0_4577_sternberg,2,158,BH,P,F,<rshift>,1,2737
T0_4577_sternberg,2,159,BH,H,T,<lshift>,1,801
T0_4577_sternberg,2,160,BH,H,T,<lshift>,1,538
T0_4577_sternberg,2,161,BH,T,F,<rshift>,1,960
T0_4577_sternberg,2,162,BH,B,T,<lshift>,1,740
T0_4577_sternberg,2,163,BH,G,F,<rshift>,1,2288
T0_4577_sternberg,2,164,BH,H,T,<lshift>,1,1171
T0_4577_sternberg,2,165,BH,T,F,<rshift>,1,1455
T0_4577_sternberg,2,166,BH,B,T,<lshift>,1,812
T0_4577_sternberg,2,167,BH,M,F,<rshift>,1,1168
T0_4577_sternberg,2,168,BH,G,F,<lshift>,0,984
T0_4577_sternberg,2,169,BH,N,F,<rshift>,1,2838
T0_4577_sternberg,2,170,BH,F,F,<rshift>,1,1459
T0_4577_sternberg,2,171,BH,L,F,<rshift>,1,1559
T0_4577_sternberg,2,172,BH,Z,F,<rshift>,1,671
T0_4577_sternberg,2,173,BH,K,F,<rshift>,1,1030
T0_4577_sternberg,2,174,BH,C,F,<rshift>,1,944
T0_4577_sternberg,2,175,BH,L,F,<rshift>,1,1077
T0_4577_sternberg,2,176,BH,H,T,<lshift>,1,1081
T0_4577_sternberg,2,177,BH,F,F,<rshift>,1,852
T0_4577_sternberg,2,178,BH,B,T,<lshift>,1,643
T0_4577_sternberg,2,179,BH,H,T,<lshift>,1,1356
T0_4577_sternberg,2,180,BH,H,T,<lshift>,1,1600
T0_4577_sternberg,2,181,BH,B,T,<lshift>,1,731
T0_4577_sternberg,2,182,BH,L,F,<rshift>,1,907
T0_4577_sternberg,2,183,BH,N,F,<rshift>,1,2056
T0_4577_sternberg,2,184,BH,F,F,<rshift>,1,844
T0_4577_sternberg,2,185,BH,B,T,<lshift>,1,988
T0_4577_sternberg,2,186,BH,H,T,<lshift>,1,1146
T0_4577_sternberg,2,187,BH,H,T,<lshift>,1,1469
T0_4577_sternberg,2,188,BH,F,F,<rshift>,1,1078
T0_4577_sternberg,2,189,BH,B,T,<lshift>,1,700
T0_4577_sternberg,2,190,BH,H,T,<lshift>,1,758
T0_4577_sternberg,2,191,BH,L,F,<rshift>,1,1073
T0_4577_sternberg,2,192,BH,N,F,<rshift>,1,1478
T0_4577_sternberg,2,193,BH,P,F,<rshift>,1,2615
T0_4577_sternberg,2,194,BH,B,T,<lshift>,1,790
T0_4577_sternberg,2,195,BH,D,F,<rshift>,1,942
T0_4577_sternberg,2,196,BH,H,T,<lshift>,1,548
T0_4577_sternberg,2,197,BH,B,T,<lshift>,1,996
T0_4577_sternberg,2,198,BH,H,T,<lshift>,1,613
T0_4577_sternberg,2,199,BH,H,T,<lshift>,1,680
T0_4577_sternberg,2,200,BH,M,F,<rshift>,1,630
T0_4577_sternberg,4,201,BQRH,H,T,<lshift>,1,2181
T0_4577_sternberg,4,202,BQRH,K,F,<rshift>,1,1465
T0_4577_sternberg,4,203,BQRH,G,F,<rshift>,1,2430
T0_4577_sternberg,4,204,BQRH,R,T,<lshift>,1,751
T0_4577_sternberg,4,205,BQRH,K,F,<rshift>,1,2339
T0_4577_sternberg,4,206,BQRH,Q,T,<lshift>,1,1850
T0_4577_sternberg,4,207,BQRH,K,F,<rshift>,1,3884
T0_4577_sternberg,4,208,BQRH,R,T,<lshift>,1,1030
T0_4577_sternberg,4,209,BQRH,H,T,<lshift>,1,874
T0_4577_sternberg,4,210,BQRH,W,F,<rshift>,1,1915
T0_4577_sternberg,4,211,BQRH,H,T,<lshift>,1,1394
T0_4577_sternberg,4,212,BQRH,K,F,<rshift>,1,2970
T0_4577_sternberg,4,213,BQRH,R,T,<lshift>,1,831
T0_4577_sternberg,4,214,BQRH,B,T,<lshift>,1,1043
T0_4577_sternberg,4,215,BQRH,Q,T,<rshift>,0,1856
T0_4577_sternberg,4,216,BQRH,Q,T,<lshift>,1,1628
T0_4577_sternberg,4,217,BQRH,W,F,<rshift>,1,3943
T0_4577_sternberg,4,218,BQRH,R,T,<lshift>,1,896
T0_4577_sternberg,4,219,BQRH,H,T,<lshift>,1,823
T0_4577_sternberg,4,220,BQRH,R,T,<lshift>,1,829
T0_4577_sternberg,4,221,BQRH,P,F,<rshift>,1,970
T0_4577_sternberg,4,222,BQRH,K,F,<rshift>,1,1429
T0_4577_sternberg,4,223,BQRH,H,T,<lshift>,1,1136
T0_4577_sternberg,4,224,BQRH,B,T,<lshift>,1,791
T0_4577_sternberg,4,225,BQRH,Q,T,<lshift>,1,835
T0_4577_sternberg,4,226,BQRH,F,F,<rshift>,1,1620
T0_4577_sternberg,4,227,BQRH,H,T,<lshift>,1,857
T0_4577_sternberg,4,228,BQRH,K,F,<rshift>,1,1205
T0_4577_sternberg,4,229,BQRH,H,T,<lshift>,1,700
T0_4577_sternberg,4,230,BQRH,T,F,<rshift>,1,983
T0_4577_sternberg,4,231,BQRH,G,F,<rshift>,1,1291
T0_4577_sternberg,4,232,BQRH,V,F,<rshift>,1,2244
T0_4577_sternberg,4,233,BQRH,B,T,<lshift>,1,706
T0_4577_sternberg,4,234,BQRH,Z,F,<rshift>,1,2069
T0_4577_sternberg,4,235,BQRH,N,F,<rshift>,1,1318
T0_4577_sternberg,4,236,BQRH,C,F,<rshift>,1,688
T0_4577_sternberg,4,237,BQRH,T,F,<rshift>,1,831
T0_4577_sternberg,4,238,BQRH,H,T,<lshift>,1,775
T0_4577_sternberg,4,239,BQRH,N,F,<rshift>,1,968
T0_4577_sternberg,4,240,BQRH,R,T,<lshift>,1,700
T0_4577_sternberg,4,241,BQRH,V,F,<rshift>,1,811
T0_4577_sternberg,4,242,BQRH,R,T,<lshift>,1,752
T0_4577_sternberg,4,243,BQRH,S,F,<rshift>,1,675
T0_4577_sternberg,4,244,BQRH,S,F,<rshift>,1,819
T0_4577_sternberg,4,245,BQRH,T,F,<rshift>,1,861
T0_4577_sternberg,4,246,BQRH,S,F,<rshift>,1,795
T0_4577_sternberg,4,247,BQRH,H,T,<lshift>,1,1179
T0_4577_sternberg,4,248,BQRH,Q,T,<lshift>,1,1160
T0_4577_sternberg,4,249,BQRH,H,T,<lshift>,1,964
T0_4577_sternberg,4,250,BQRH,G,F,<rshift>,1,794
T0_4577_sternberg,6,251,WBLFKJ,R,F,<rshift>,1,1533
T0_4577_sternberg,6,252,WBLFKJ,K,T,<lshift>,1,2224
T0_4577_sternberg,6,253,WBLFKJ,R,F,<rshift>,1,1207
T0_4577_sternberg,6,254,WBLFKJ,B,T,<lshift>,1,815
T0_4577_sternberg,6,255,WBLFKJ,K,T,<lshift>,1,2443
T0_4577_sternberg,6,256,WBLFKJ,Z,F,<rshift>,1,833
T0_4577_sternberg,6,257,WBLFKJ,B,T,<lshift>,1,930
T0_4577_sternberg,6,258,WBLFKJ,Q,F,<rshift>,1,4502
T0_4577_sternberg,6,259,WBLFKJ,W,T,<rshift>,0,2356
T0_4577_sternberg,6,260,WBLFKJ,R,F,<rshift>,1,4141
T0_4577_sternberg,6,261,WBLFKJ,P,F,<rshift>,1,1253
T0_4577_sternberg,6,262,WBLFKJ,G,F,<rshift>,1,2151
T0_4577_sternberg,6,263,WBLFKJ,G,F,<rshift>,1,2178
T0_4577_sternberg,6,264,WBLFKJ,W,T,<lshift>,1,1453
T0_4577_sternberg,6,265,WBLFKJ,L,T,<lshift>,1,1239
T0_4577_sternberg,6,266,WBLFKJ,C,F,<rshift>,1,1040
T0_4577_sternberg,6,267,WBLFKJ,L,T,<lshift>,1,896
T0_4577_sternberg,6,268,WBLFKJ,J,T,<lshift>,1,1224
T0_4577_sternberg,6,269,WBLFKJ,P,F,<rshift>,1,1129
T0_4577_sternberg,6,270,WBLFKJ,W,T,<lshift>,1,765
T0_4577_sternberg,6,271,WBLFKJ,F,T,<lshift>,1,2806
T0_4577_sternberg,6,272,WBLFKJ,N,F,<rshift>,1,2432
T0_4577_sternberg,6,273,WBLFKJ,N,F,<rshift>,1,968
T0_4577_sternberg,6,274,WBLFKJ,H,F,<rshift>,1,6197
T0_4577_sternberg,6,275,WBLFKJ,F,T,<lshift>,1,1101
T0_4577_sternberg,6,276,WBLFKJ,V,F,<rshift>,1,746
T0_4577_sternberg,6,277,WBLFKJ,P,F,<rshift>,1,985
T0_4577_sternberg,6,278,WBLFKJ,J,T,<lshift>,1,978
T0_4577_sternberg,6,279,WBLFKJ,T,F,<rshift>,1,833
T0_4577_sternberg,6,280,WBLFKJ,B,T,<lshift>,1,1273
T0_4577_sternberg,6,281,WBLFKJ,B,T,<lshift>,1,796
T0_4577_sternberg,6,282,WBLFKJ,W,T,<lshift>,1,1063
T0_4577_sternberg,6,283,WBLFKJ,P,F,<rshift>,1,2146
T0_4577_sternberg,6,284,WBLFKJ,F,T,<lshift>,1,803
T0_4577_sternberg,6,285,WBLFKJ,F,T,<lshift>,1,748
T0_4577_sternberg,6,286,WBLFKJ,Z,F,<rshift>,1,830
T0_4577_sternberg,6,287,WBLFKJ,F,T,<lshift>,1,679
T0_4577_sternberg,6,288,WBLFKJ,F,T,<lshift>,1,778
T0_4577_sternberg,6,289,WBLFKJ,L,T,<lshift>,1,1258
T0_4577_sternberg,6,290,WBLFKJ,V,F,<rshift>,1,874
T0_4577_sternberg,6,291,WBLFKJ,J,T,<lshift>,1,1048
T0_4577_sternberg,6,292,WBLFKJ,N,F,<rshift>,1,1134
T0_4577_sternberg,6,293,WBLFKJ,T,F,<rshift>,1,2357
T0_4577_sternberg,6,294,WBLFKJ,F,T,<lshift>,1,1345
T0_4577_sternberg,6,295,WBLFKJ,P,F,<rshift>,1,964
T0_4577_sternberg,6,296,WBLFKJ,J,T,<lshift>,1,1017
T0_4577_sternberg,6,297,WBLFKJ,B,T,<lshift>,1,944
T0_4577_sternberg,6,298,WBLFKJ,C,F,<rshift>,1,2258
T0_4577_sternberg,6,299,WBLFKJ,T,F,<rshift>,1,1358
T0_4577_sternberg,6,300,WBLFKJ,H,F,<rshift>,1,5939
